Folder: SPOC_code/data/thermal_properties

Note: README.md
# Studying-Polymers-on a-Chip (SPOC) Data Cleaning and Processing
Author: Jay Jimenez jimenez45@llnl.gov

# Project Description

The SPOC project aims to establish an automated, high-throughput experimentation workflow to screen solid state polymer electrolytes. This repository contains code to reproduce the data cleaning workflow and data processing for the SPOC project. Electrochemical impedance spectroscopy processing code is included as a Python file which was used to determine bulk ionic conductivities.

## License

This project is licensed under the MIT License - see the [LICENSE.md](LICENSE.md) file for details

LLNL-CODE-XXXXXX

File: 102323_9_PEGMEA_1_PEGDA_0_none_0_none_1.txt
Filename	10-23-23-pegda-pegmea-0a380-0litfsi
Instrument name	DSC2A-01583 (172.23.160.11)
Operator	JJS
rundate	10/7/2024
Sample name	10-23-23-pegda-pegmea-0a380-0litfsi
proceduresegments	Ramp 5.00 °C/min to 120.00 °C; Ramp 5.00 °C/min to -100.00 °C; Ramp 5.00 °C/min to 120.00 °C; Ramp 5.00 °C/min to -100.00 °C; Ramp 5.00 °C/min to 120.00 °C
[step]
Ramp 5.00 °C/min to -100.00 °C
Time	Temperature	Heat Flow (Normalized)
min	°C	W/g
19.01	119.16	-0.187
19.13	119.51	-0.202
19.28	119.13	-0.028
19.43	118.52	0.069
19.57	117.87	0.107
19.72	117.14	0.122
19.87	116.39	0.128
20.03	115.63	0.129
20.16	114.95	0.131
20.32	114.18	0.131
20.46	113.47	0.132
20.61	112.73	0.132
20.76	111.99	0.133
20.90	111.25	0.133
21.05	110.51	0.133
21.20	109.79	0.133
21.34	109.08	0.133
21.49	108.30	0.133
21.64	107.56	0.133
21.78	106.85	0.133
21.93	106.11	0.133
22.05	105.52	0.133
22.23	104.63	0.133
22.38	103.87	0.133
22.53	103.14	0.132
22.68	102.39	0.132
22.82	101.69	0.132
22.97	100.93	0.132
23.12	100.20	0.132
23.26	99.47	0.132
23.41	98.72	0.132
23.56	97.98	0.132
23.71	97.26	0.132
23.85	96.53	0.132
24.01	95.75	0.131
24.15	95.03	0.131
24.29	94.31	0.131
24.44	93.57	0.131
24.59	92.83	0.131
24.74	92.08	0.131
24.88	91.36	0.131
25.04	90.60	0.131
25.18	89.86	0.131
25.33	89.13	0.131
25.48	88.39	0.131
25.62	87.69	0.131
25.77	86.95	0.131
25.92	86.19	0.134
26.07	85.46	0.134
26.21	84.73	0.133
26.36	83.97	0.132
26.51	83.24	0.132
26.66	82.50	0.132
26.80	81.79	0.132
26.95	81.03	0.131
27.10	80.28	0.131
27.24	79.57	0.131
27.39	78.83	0.131
27.54	78.09	0.130
27.69	77.35	0.130
27.83	76.62	0.130
27.99	75.86	0.130
28.13	75.13	0.130
28.28	74.41	0.130
28.42	73.68	0.130
28.58	72.92	0.130
28.72	72.20	0.130
28.87	71.47	0.129
29.02	70.69	0.129
29.16	69.99	0.129
29.31	69.23	0.129
29.46	68.52	0.129
29.61	67.77	0.130
29.75	67.06	0.130
29.90	66.30	0.130
30.05	65.55	0.129
30.19	64.83	0.129
30.34	64.09	0.129
30.48	63.38	0.129
30.63	62.64	0.129
30.78	61.88	0.129
30.93	61.14	0.129
31.08	60.40	0.129
31.23	59.67	0.129
31.33	59.13	0.129
31.52	58.19	0.128
31.67	57.45	0.128
31.82	56.71	0.128
31.97	55.97	0.128
32.11	55.24	0.128
32.26	54.52	0.128
32.44	53.59	0.128
32.56	53.04	0.128
32.70	52.30	0.128
32.85	51.57	0.128
33.00	50.80	0.128
33.14	50.10	0.128
33.29	49.34	0.128
33.44	48.63	0.128
33.59	47.89	0.128
33.73	47.14	0.128
33.88	46.40	0.128
34.02	45.70	0.128
34.17	44.96	0.128
34.33	44.16	0.128
34.47	43.46	0.127
34.62	42.72	0.127
34.76	42.00	0.127
34.91	41.25	0.127
35.06	40.51	0.127
35.21	39.76	0.127
35.36	39.03	0.127
35.51	38.28	0.127
35.65	37.56	0.127
35.80	36.83	0.127
35.94	36.10	0.127
36.09	35.36	0.127
36.24	34.61	0.127
36.39	33.88	0.127
36.54	33.14	0.127
36.69	32.39	0.127
36.83	31.66	0.127
36.98	30.92	0.127
37.13	30.18	0.127
37.28	29.45	0.127
37.42	28.74	0.127
37.57	27.99	0.127
37.72	27.25	0.126
37.87	26.49	0.127
38.01	25.80	0.127
38.17	25.00	0.126
38.31	24.29	0.126
38.46	23.56	0.126
38.60	22.82	0.126
38.75	22.10	0.126
38.90	21.34	0.126
39.05	20.60	0.126
39.20	19.85	0.126
39.35	19.10	0.126
39.49	18.40	0.126
39.64	17.66	0.126
39.78	16.92	0.126
39.93	16.19	0.126
40.08	15.44	0.125
40.22	14.73	0.125
40.37	13.98	0.125
40.51	13.29	0.125
40.66	12.57	0.125
40.82	11.76	0.125
40.96	11.03	0.125
41.11	10.28	0.125
41.26	9.56	0.125
41.41	8.81	0.125
41.56	8.07	0.125
41.70	7.34	0.125
41.85	6.60	0.125
42.00	5.85	0.125
42.14	5.14	0.125
42.29	4.38	0.125
42.44	3.67	0.125
42.59	2.93	0.125
42.73	2.19	0.125
42.88	1.45	0.125
43.03	0.71	0.125
43.18	-0.05	0.125
43.32	-0.74	0.125
43.47	-1.51	0.125
43.62	-2.24	0.125
43.77	-2.98	0.125
43.91	-3.69	0.125
44.06	-4.45	0.125
44.21	-5.18	0.125
44.36	-5.93	0.125
44.50	-6.65	0.125
44.65	-7.38	0.125
44.80	-8.13	0.125
44.95	-8.87	0.125
45.09	-9.61	0.125
45.24	-10.32	0.125
45.38	-11.05	0.125
45.53	-11.79	0.125
45.68	-12.53	0.125
45.84	-13.31	0.125
46.01	-14.19	0.125
46.13	-14.75	0.125
46.28	-15.49	0.125
46.42	-16.22	0.126
46.57	-16.95	0.126
46.72	-17.71	0.126
46.86	-18.44	0.126
47.01	-19.17	0.126
47.16	-19.91	0.126
47.30	-20.63	0.126
47.45	-21.38	0.126
47.60	-22.12	0.126
47.75	-22.86	0.126
47.89	-23.57	0.126
48.04	-24.32	0.126
48.19	-25.06	0.126
48.34	-25.83	0.126
48.49	-26.53	0.126
48.63	-27.26	0.126
48.78	-27.99	0.127
48.93	-28.74	0.127
49.08	-29.49	0.127
49.22	-30.19	0.127
49.37	-30.94	0.127
49.51	-31.65	0.127
49.67	-32.46	0.127
49.81	-33.17	0.127
49.96	-33.92	0.127
50.11	-34.64	0.127
50.26	-35.37	0.127
50.40	-36.11	0.127
50.55	-36.85	0.127
50.68	-37.48	0.127
50.85	-38.35	0.127
50.99	-39.07	0.127
51.14	-39.82	0.128
51.28	-40.52	0.127
51.44	-41.28	0.127
51.58	-42.01	0.128
51.73	-42.76	0.128
51.88	-43.48	0.128
52.02	-44.22	0.128
52.17	-44.93	0.128
52.32	-45.71	0.128
52.47	-46.44	0.128
52.62	-47.18	0.128
52.76	-47.91	0.127
52.91	-48.63	0.127
53.06	-49.40	0.127
53.21	-50.12	0.127
53.36	-50.88	0.127
53.50	-51.61	0.127
53.64	-52.31	0.126
53.79	-53.07	0.126
53.94	-53.81	0.126
54.09	-54.55	0.119
54.24	-55.29	0.121
54.38	-56.02	0.121
54.54	-56.77	0.121
54.68	-57.51	0.121
54.83	-58.26	0.120
54.98	-58.99	0.118
55.12	-59.72	0.116
55.27	-60.46	0.114
55.45	-61.37	0.111
55.56	-61.90	0.109
55.71	-62.65	0.106
55.86	-63.43	0.103
56.01	-64.15	0.099
56.16	-64.90	0.095
56.30	-65.64	0.092
56.45	-66.37	0.089
56.60	-67.14	0.086
56.75	-67.88	0.082
56.89	-68.61	0.080
57.04	-69.34	0.077
57.19	-70.09	0.074
57.34	-70.85	0.072
57.49	-71.57	0.070
57.63	-72.31	0.068
57.78	-73.05	0.066
57.93	-73.78	0.065
58.08	-74.54	0.063
58.22	-75.24	0.062
58.37	-76.01	0.061
58.51	-76.68	0.059
58.66	-77.48	0.058
58.81	-78.22	0.057
58.96	-78.94	0.056
59.11	-79.69	0.055
59.25	-80.39	0.054
59.40	-81.14	0.054
59.55	-81.90	0.053
59.70	-82.64	0.052
59.82	-83.24	0.052
59.99	-84.10	0.051
60.14	-84.82	0.050
60.29	-85.58	0.050
60.44	-86.31	0.049
60.58	-87.02	0.049
60.73	-87.76	0.048
60.88	-88.50	0.048
61.02	-89.23	0.048
61.17	-89.97	0.047
61.32	-90.70	0.047
61.46	-91.44	0.046
61.61	-92.18	0.046
61.76	-92.93	0.046
61.91	-93.65	0.045
62.06	-94.38	0.045
62.20	-95.12	0.045
62.34	-95.82	0.044
62.49	-96.56	0.044
62.65	-97.33	0.044
62.79	-98.04	0.043
62.94	-98.81	0.043
63.00	-99.10	0.043

[step]
Ramp 5.00 °C/min to 120.00 °C
Time	Temperature	Heat Flow (Normalized)
min	°C	W/g
63.01	-99.11	0.043
63.15	-99.41	0.068
63.29	-99.02	-0.011
63.44	-98.41	-0.061
63.62	-97.58	-0.083
63.74	-97.01	-0.089
63.88	-96.29	-0.093
64.03	-95.58	-0.094
64.18	-94.81	-0.095
64.32	-94.12	-0.096
64.47	-93.36	-0.097
64.62	-92.63	-0.097
64.76	-91.89	-0.098
64.91	-91.17	-0.098
65.06	-90.44	-0.099
65.21	-89.66	-0.099
65.35	-88.96	-0.099
65.50	-88.21	-0.099
65.64	-87.51	-0.100
65.79	-86.76	-0.100
65.94	-86.02	-0.100
66.08	-85.31	-0.101
66.23	-84.56	-0.101
66.38	-83.85	-0.101
66.53	-83.08	-0.102
66.67	-82.39	-0.102
66.81	-81.66	-0.102
66.96	-80.90	-0.103
67.11	-80.18	-0.103
67.25	-79.46	-0.104
67.40	-78.73	-0.104
67.55	-77.96	-0.105
67.70	-77.22	-0.105
67.84	-76.53	-0.105
67.99	-75.78	-0.106
68.14	-75.04	-0.107
68.28	-74.32	-0.107
68.43	-73.59	-0.108
68.58	-72.85	-0.109
68.73	-72.11	-0.110
68.87	-71.39	-0.111
69.03	-70.61	-0.112
69.16	-69.93	-0.113
69.31	-69.18	-0.114
69.46	-68.44	-0.116
69.60	-67.72	-0.118
69.75	-67.00	-0.120
69.89	-66.29	-0.122
70.04	-65.54	-0.125
70.19	-64.80	-0.129
70.33	-64.12	-0.132
70.48	-63.36	-0.137
70.63	-62.64	-0.142
70.78	-61.89	-0.146
70.92	-61.17	-0.150
71.07	-60.44	-0.155
71.22	-59.70	-0.158
71.36	-58.99	-0.162
71.51	-58.23	-0.165
71.65	-57.54	-0.167
71.80	-56.82	-0.169
71.95	-56.08	-0.171
72.09	-55.36	-0.172
[...]
79.43	-18.64	-0.177
79.57	-17.92	-0.176
79.72	-17.17	-0.176
79.85	-16.53	-0.176
80.00	-15.76	-0.176
80.16	-14.96	-0.176
80.31	-14.23	-0.176
80.45	-13.55	-0.176
80.60	-12.76	-0.176
80.75	-12.05	-0.176
80.90	-11.28	-0.176
81.04	-10.58	-0.176
81.19	-9.85	-0.176
81.34	-9.09	-0.176
81.48	-8.37	-0.176
81.63	-7.63	-0.176
81.77	-6.91	-0.176
81.92	-6.16	-0.176
82.07	-5.43	-0.176
82.21	-4.73	-0.176
82.37	-3.94	-0.175
82.51	-3.22	-0.175
82.65	-2.50	-0.175
82.80	-1.75	-0.175
82.95	-1.01	-0.175
83.10	-0.26	-0.175
83.24	0.42	-0.175
83.39	1.18	-0.175
83.53	1.88	-0.175
83.69	2.65	-0.175
83.83	3.39	-0.175
83.98	4.11	-0.176
84.13	4.86	-0.176
84.27	5.59	-0.176
84.42	6.33	-0.176
84.56	7.02	-0.176
84.71	7.80	-0.176
84.85	8.51	-0.176
85.00	9.23	-0.176
85.15	9.97	-0.176
85.29	10.70	-0.176
85.44	11.45	-0.176
85.59	12.20	-0.176
85.73	12.90	-0.176
85.88	13.65	-0.176
86.01	14.31	-0.176
86.18	15.12	-0.176
86.31	15.81	-0.176
86.47	16.57	-0.176
86.62	17.35	-0.176
86.76	18.02	-0.177
86.91	18.79	-0.177
87.06	19.52	-0.177
87.21	20.29	-0.177
87.35	21.00	-0.177
87.49	21.70	-0.177
87.64	22.42	-0.177
87.80	23.22	-0.177
87.94	23.92	-0.177
88.08	24.63	-0.177
88.23	25.38	-0.177
88.38	26.12	-0.177
88.53	26.89	-0.178
88.67	27.58	-0.178
88.82	28.33	-0.178
88.96	29.04	-0.178
89.11	29.79	-0.178
89.25	30.52	-0.178
89.40	31.22	-0.178
89.56	32.07	-0.178
89.69	32.71	-0.178
89.84	33.46	-0.178
90.00	34.22	-0.178
90.14	34.94	-0.178
90.29	35.67	-0.178
90.43	36.38	-0.178
90.57	37.11	-0.178
90.73	37.88	-0.178
90.87	38.59	-0.178
91.02	39.35	-0.179
91.16	40.07	-0.179
91.30	40.78	-0.179
91.46	41.56	-0.179
91.60	42.28	-0.179
91.75	43.01	-0.179
91.90	43.74	-0.179
92.04	44.47	-0.179
92.19	45.22	-0.179
92.34	45.93	-0.179
92.48	46.66	-0.179
92.63	47.41	-0.179
92.78	48.14	-0.179
92.92	48.87	-0.179
93.07	49.60	-0.179
93.21	50.31	-0.179
93.36	51.04	-0.180
93.51	51.83	-0.180
93.66	52.56	-0.180
93.80	53.26	-0.180
93.95	54.00	-0.180
94.09	54.73	-0.180
94.24	55.47	-0.180
94.40	56.24	-0.180
94.53	56.92	-0.180
94.69	57.71	-0.180
94.83	58.40	-0.180
94.97	59.12	-0.180
95.12	59.87	-0.180
95.27	60.61	-0.181
95.42	61.36	-0.181
95.56	62.08	-0.181
95.72	62.87	-0.181
95.85	63.51	-0.181
96.01	64.30	-0.181
96.14	64.97	-0.181
96.30	65.75	-0.181
96.44	66.45	-0.181
96.59	67.22	-0.181
96.74	67.97	-0.181
96.86	68.58	-0.181
97.03	69.43	-0.182
97.18	70.15	-0.182
97.33	70.89	-0.182
97.47	71.61	-0.182
97.62	72.38	-0.182
97.76	73.06	-0.182
97.91	73.82	-0.182
98.08	74.67	-0.182
98.21	75.33	-0.182
98.35	76.03	-0.183
98.50	76.75	-0.183
98.65	77.50	-0.183
98.79	78.21	-0.183
98.94	78.95	-0.183
99.08	79.66	-0.183
99.23	80.40	-0.183
99.37	81.13	-0.183
99.48	81.67	-0.183
99.66	82.60	-0.183
99.82	83.38	-0.184
99.95	84.04	-0.184
100.11	84.85	-0.184
100.25	85.52	-0.184
100.40	86.29	-0.184
100.55	87.05	-0.184
100.70	87.75	-0.184
100.84	88.49	-0.184
100.99	89.20	-0.184
101.14	89.99	-0.184
101.28	90.67	-0.184
101.43	91.41	-0.184
101.58	92.17	-0.184
101.71	92.83	-0.184
101.88	93.68	-0.184
102.01	94.31	-0.184
102.16	95.09	-0.184
102.31	95.84	-0.184
102.45	96.50	-0.184
102.60	97.31	-0.185
102.75	98.05	-0.185
102.89	98.75	-0.185
103.05	99.53	-0.186
103.20	100.26	-0.187
103.34	100.98	-0.188
103.49	101.72	-0.188
103.63	102.42	-0.188
103.78	103.16	-0.187
103.92	103.88	-0.187
104.07	104.64	-0.186
104.22	105.39	-0.186
104.36	106.11	-0.186
104.51	106.85	-0.186
104.66	107.57	-0.187
104.80	108.31	-0.187
104.91	108.83	-0.187
105.10	109.78	-0.187
105.25	110.52	-0.187
105.39	111.22	-0.187
105.54	112.00	-0.187
105.68	112.69	-0.187
105.84	113.46	-0.187
105.98	114.17	-0.187
106.12	114.90	-0.187
106.27	115.63	-0.188
106.41	116.33	-0.188
106.56	117.10	-0.188
106.71	117.85	-0.188
106.86	118.59	-0.188
107.00	119.30	-0.188

File: 102323_9_PEGMEA_1_PEGDA_0_none_0_none_2.txt
Filename	10-23-23-pegda-pegmea-0a380-0litfsi
Instrument name	DSC2A-01583 (172.23.160.11)
Operator	JJS
rundate	10/7/2024
Sample name	10-23-23-pegda-pegmea-0a380-0litfsi
proceduresegments	Ramp 5.00 °C/min to 120.00 °C; Ramp 5.00 °C/min to -100.00 °C; Ramp 5.00 °C/min to 120.00 °C; Ramp 5.00 °C/min to -100.00 °C; Ramp 5.00 °C/min to 120.00 °C
[step]
Ramp 5.00 °C/min to -100.00 °C
Time	Temperature	Heat Flow (Normalized)
min	°C	W/g
107.00	119.32	-0.188
107.15	119.65	-0.189
107.30	119.24	-0.016
107.45	118.60	0.075
107.59	117.95	0.110
107.74	117.20	0.123
107.89	116.46	0.128
108.03	115.78	0.129
108.19	114.95	0.131
108.33	114.27	0.131
108.47	113.57	0.132
108.63	112.79	0.132
108.77	112.09	0.132
108.92	111.34	0.133
109.07	110.57	0.133
109.22	109.82	0.133
109.35	109.15	0.133
109.51	108.37	0.133
109.66	107.64	0.133
109.80	106.91	0.133
109.95	106.17	0.133
110.10	105.42	0.133
110.25	104.70	0.133
110.39	103.98	0.132
110.54	103.26	0.132
110.69	102.49	0.132
110.84	101.73	0.132
110.99	101.01	0.132
111.13	100.28	0.132
111.28	99.52	0.132
111.43	98.79	0.132
111.58	98.06	0.132
111.73	97.31	0.132
111.87	96.59	0.132
112.02	95.82	0.131
112.16	95.11	0.131
112.32	94.36	0.131
112.46	93.66	0.131
112.61	92.88	0.131
112.75	92.18	0.131
112.91	91.40	0.131
113.05	90.69	0.131
113.20	89.93	0.131
113.35	89.22	0.131
113.49	88.48	0.131
113.63	87.78	0.131
113.79	86.98	0.131
113.93	86.28	0.131
114.08	85.54	0.133
114.24	84.77	0.132
114.38	84.06	0.132
114.52	83.34	0.132
114.68	82.57	0.132
114.82	81.85	0.131
114.96	81.13	0.131
115.11	80.38	0.131
115.25	79.68	0.131
115.41	78.87	0.130
115.56	78.16	0.130
115.69	77.49	0.130
115.86	76.66	0.130
116.00	75.95	0.130
116.14	75.25	0.130
116.31	74.42	0.130
116.45	73.72	0.130
116.59	73.00	0.130
116.73	72.29	0.130
116.86	71.63	0.129
117.03	70.79	0.129
117.18	70.06	0.129
117.33	69.31	0.129
117.48	68.57	0.129
117.62	67.84	0.129
117.76	67.13	0.129
117.92	66.37	0.129
118.07	65.62	0.129
118.21	64.92	0.129
118.35	64.20	0.129
118.50	63.45	0.129
118.66	62.68	0.129
118.80	61.96	0.129
118.95	61.20	0.129
119.10	60.49	0.129
119.25	59.73	0.129
119.39	59.01	0.128
119.53	58.31	0.128
119.69	57.51	0.128
119.84	56.77	0.128
119.99	56.03	0.128
120.13	55.30	0.128
120.28	54.58	0.128
120.42	53.86	0.128
120.56	53.14	0.128
120.71	52.39	0.128
120.86	51.65	0.128
121.02	50.89	0.128
121.16	50.15	0.128
121.31	49.43	0.128
121.46	48.69	0.128
121.61	47.94	0.128
121.75	47.23	0.128
121.90	46.45	0.128
122.06	45.68	0.128
122.20	44.98	0.127
122.34	44.26	0.127
122.49	43.54	0.127
122.64	42.80	0.127
122.78	42.09	0.127
122.94	41.30	0.127
123.08	40.56	0.127
123.22	39.87	0.127
123.38	39.09	0.127
123.52	38.38	0.127
123.66	37.66	0.127
123.82	36.89	0.127
123.96	36.17	0.127
124.11	35.42	0.127
124.26	34.68	0.127
124.41	33.95	0.127
124.55	33.26	0.127
124.71	32.43	0.127
124.85	31.71	0.127
124.98	31.07	0.127
125.15	30.26	0.127
125.30	29.50	0.127
125.44	28.79	0.127
125.59	28.06	0.127
125.73	27.33	0.127
125.89	26.56	0.127
126.03	25.83	0.127
126.18	25.09	0.126
126.32	24.37	0.126
126.45	23.77	0.126
126.61	22.92	0.126
126.77	22.15	0.126
126.91	21.44	0.126
127.06	20.69	0.126
127.21	19.92	0.126
127.36	19.19	0.126
127.50	18.49	0.126
127.65	17.72	0.126
127.80	16.99	0.126
127.95	16.25	0.126
128.10	15.51	0.126
128.25	14.76	0.126
128.40	14.01	0.126
128.54	13.29	0.126
128.68	12.62	0.125
128.85	11.74	0.125
128.98	11.09	0.125
129.12	10.38	0.125
129.28	9.60	0.125
129.42	8.89	0.125
129.58	8.13	0.125
129.71	7.44	0.125
129.87	6.65	0.125
130.01	5.95	0.125
130.16	5.20	0.125
130.30	4.51	0.125
130.45	3.74	0.125
130.60	2.98	0.125
130.75	2.25	0.125
130.90	1.52	0.125
131.05	0.77	0.125
131.20	0.03	0.125
131.34	-0.67	0.125
131.49	-1.42	0.125
131.63	-2.13	0.125
131.79	-2.91	0.125
131.92	-3.59	0.125
132.08	-4.36	0.125
132.22	-5.08	0.125
132.37	-5.85	0.125
132.51	-6.56	0.125
132.66	-7.29	0.125
132.81	-8.04	0.125
132.97	-8.81	0.125
133.11	-9.53	0.125
133.25	-10.24	0.125
133.40	-11.00	0.125
133.55	-11.73	0.125
133.71	-12.51	0.125
133.85	-13.20	0.125
133.99	-13.94	0.125
134.15	-14.71	0.125
134.29	-15.44	0.125
134.43	-16.13	0.125
134.59	-16.93	0.126
134.73	-17.63	0.126
134.87	-18.33	0.126
135.03	-19.10	0.126
135.17	-19.79	0.126
135.28	-20.34	0.126
135.47	-21.30	0.126
135.62	-22.05	0.126
135.76	-22.75	0.126
135.91	-23.52	0.126
136.07	-24.28	0.126
136.21	-24.98	0.126
136.35	-25.71	0.126
136.50	-26.42	0.126
136.65	-27.17	0.126
136.80	-27.95	0.127
136.95	-28.68	0.127
137.09	-29.40	0.127
137.24	-30.15	0.127
137.39	-30.90	0.127
137.54	-31.64	0.127
137.68	-32.36	0.127
137.83	-33.09	0.127
137.98	-33.83	0.127
138.12	-34.56	0.127
138.27	-35.30	0.127
138.42	-36.03	0.127
138.57	-36.78	0.127
138.71	-37.50	0.127
138.86	-38.24	0.127
139.00	-38.96	0.127
139.16	-39.74	0.127
139.30	-40.46	0.127
139.45	-41.18	0.127
139.60	-41.92	0.127
139.75	-42.70	0.127
139.90	-43.44	0.124
140.05	-44.18	0.125
140.19	-44.90	0.126
140.34	-45.65	0.126
140.49	-46.38	0.126
140.63	-47.10	0.126
140.78	-47.83	0.127
140.93	-48.57	0.126
141.08	-49.33	0.126
141.21	-50.01	0.126
141.37	-50.79	0.126
141.52	-51.54	0.126
141.67	-52.27	0.126
141.82	-53.02	0.125
141.96	-53.75	0.125
142.11	-54.48	0.124
142.26	-55.26	0.124
142.40	-55.95	0.123
142.55	-56.72	0.122
142.70	-57.43	0.121
142.84	-58.16	0.120
142.99	-58.90	0.118
143.14	-59.67	0.117
143.29	-60.40	0.115
143.43	-61.10	0.112
143.58	-61.85	0.109
143.74	-62.64	0.106
143.88	-63.36	0.102
144.03	-64.11	0.099
144.17	-64.81	0.096
144.31	-65.54	0.093
144.47	-66.32	0.089
144.62	-67.07	0.086
144.76	-67.79	0.083
144.91	-68.53	0.080
145.06	-69.29	0.077
145.21	-70.02	0.074
145.35	-70.72	0.072
145.50	-71.47	0.070
145.64	-72.21	0.068
145.80	-72.99	0.066
145.94	-73.72	0.065
146.10	-74.48	0.063
146.24	-75.19	0.062
146.39	-75.95	0.060
146.53	-76.68	0.059
146.68	-77.40	0.058
146.83	-78.15	0.057
146.98	-78.88	0.056
147.12	-79.60	0.055
147.27	-80.36	0.054
147.42	-81.10	0.054
147.57	-81.84	0.053
147.71	-82.54	0.052
147.86	-83.28	0.052
148.01	-84.04	0.051
148.16	-84.77	0.050
148.30	-85.49	0.050
148.45	-86.22	0.049
148.60	-86.96	0.049
148.75	-87.71	0.048
148.89	-88.42	0.048
149.04	-89.15	0.048
149.19	-89.91	0.047
149.33	-90.60	0.047
149.48	-91.38	0.046
149.63	-92.09	0.046
149.78	-92.84	0.046
149.93	-93.58	0.045
150.07	-94.30	0.045
150.23	-95.07	0.045
150.37	-95.80	0.044
150.51	-96.51	0.044
150.67	-97.26	0.044
150.81	-97.97	0.043
150.95	-98.71	0.043
151.00	-98.95	0.043

[step]
Ramp 5.00 °C/min to 120.00 °C
Time	Temperature	Heat Flow (Normalized)	Heat Flow
min	°C	W/g	mW
151.00	-98.96	0.043	0.552
151.15	-99.25	0.067	0.868
151.30	-98.85	-0.011	-0.147
151.44	-98.26	-0.060	-0.777
151.59	-97.55	-0.082	-1.051
151.74	-96.85	-0.089	-1.154
151.88	-96.15	-0.093	-1.194
152.03	-95.42	-0.094	-1.214
152.18	-94.63	-0.095	-1.231
152.32	-93.96	-0.096	-1.242
152.48	-93.19	-0.097	-1.251
152.62	-92.46	-0.097	-1.257
152.77	-91.74	-0.098	-1.263
152.91	-91.00	-0.098	-1.268
153.07	-90.24	-0.099	-1.273
153.21	-89.53	-0.099	-1.277
153.35	-88.81	-0.099	-1.281
153.50	-88.07	-0.100	-1.285
153.65	-87.33	-0.100	-1.289
153.79	-86.60	-0.100	-1.293
153.94	-85.88	-0.101	-1.297
154.08	-85.14	-0.101	-1.301
154.21	-84.52	-0.101	-1.304
154.38	-83.67	-0.101	-1.309
154.53	-82.94	-0.102	-1.314
154.67	-82.24	-0.102	-1.318
154.81	-81.51	-0.103	-1.323
154.97	-80.73	-0.103	-1.328
155.11	-80.04	-0.103	-1.333
155.26	-79.29	-0.104	-1.338
155.40	-78.55	-0.104	-1.344
155.55	-77.80	-0.105	-1.349
155.70	-77.07	-0.105	-1.355
155.84	-76.37	-0.106	-1.362
[...]
175.50	21.90	-0.177	-2.284
175.65	22.63	-0.177	-2.284
175.80	23.40	-0.177	-2.286
175.93	24.06	-0.177	-2.286
176.08	24.81	-0.177	-2.287
176.23	25.56	-0.177	-2.288
176.37	26.27	-0.177	-2.289
176.53	27.03	-0.177	-2.290
176.68	27.77	-0.178	-2.290
176.82	28.50	-0.178	-2.290
176.97	29.23	-0.178	-2.291
177.11	29.97	-0.178	-2.292
177.26	30.70	-0.178	-2.293
177.41	31.44	-0.178	-2.293
177.55	32.13	-0.178	-2.294
177.70	32.90	-0.178	-2.295
177.85	33.63	-0.178	-2.296
177.99	34.36	-0.178	-2.297
178.13	35.07	-0.178	-2.298
178.29	35.85	-0.178	-2.299
178.43	36.57	-0.178	-2.300
178.58	37.31	-0.178	-2.300
178.73	38.06	-0.178	-2.302
178.87	38.76	-0.178	-2.303
179.02	39.51	-0.178	-2.303
179.16	40.22	-0.179	-2.303
179.31	40.97	-0.179	-2.304
179.46	41.70	-0.179	-2.305
179.61	42.45	-0.179	-2.307
179.75	43.17	-0.179	-2.307
179.90	43.89	-0.179	-2.308
180.05	44.65	-0.179	-2.309
180.20	45.39	-0.179	-2.309
180.34	46.11	-0.179	-2.311
180.48	46.83	-0.179	-2.312
180.64	47.59	-0.179	-2.313
180.78	48.30	-0.179	-2.313
180.92	49.03	-0.179	-2.315
181.07	49.75	-0.179	-2.315
181.22	50.52	-0.180	-2.316
181.37	51.26	-0.180	-2.317
181.52	51.99	-0.180	-2.318
181.66	52.70	-0.180	-2.318
181.81	53.46	-0.180	-2.320
181.95	54.18	-0.180	-2.321
182.10	54.90	-0.180	-2.322
182.24	55.63	-0.180	-2.322
182.39	56.37	-0.180	-2.323
182.54	57.12	-0.180	-2.324
182.68	57.83	-0.180	-2.325
182.83	58.59	-0.180	-2.326
182.97	59.28	-0.180	-2.327
183.13	60.06	-0.180	-2.328
183.28	60.79	-0.181	-2.329
183.40	61.42	-0.181	-2.330
183.57	62.25	-0.181	-2.331
183.73	63.09	-0.181	-2.331
183.85	63.69	-0.181	-2.332
184.01	64.46	-0.181	-2.334
184.15	65.17	-0.181	-2.335
184.30	65.91	-0.181	-2.336
184.45	66.67	-0.181	-2.338
184.59	67.38	-0.181	-2.339
184.74	68.12	-0.181	-2.339
184.88	68.83	-0.181	-2.340
185.03	69.58	-0.181	-2.341
185.18	70.34	-0.182	-2.343
185.33	71.06	-0.182	-2.344
185.47	71.79	-0.182	-2.346
185.62	72.54	-0.182	-2.347
185.77	73.25	-0.182	-2.349
185.91	73.99	-0.182	-2.350
186.06	74.72	-0.182	-2.351
186.20	75.42	-0.182	-2.352
186.35	76.19	-0.182	-2.353
186.50	76.94	-0.183	-2.354
186.64	77.65	-0.183	-2.355
186.79	78.40	-0.183	-2.357
186.94	79.11	-0.183	-2.359
187.09	79.87	-0.183	-2.360
187.22	80.51	-0.183	-2.361
187.37	81.28	-0.183	-2.363
187.52	82.02	-0.183	-2.364
187.68	82.81	-0.183	-2.365
187.82	83.55	-0.183	-2.367
187.97	84.26	-0.184	-2.368
188.12	85.01	-0.184	-2.370
188.26	85.73	-0.184	-2.372
188.40	86.43	-0.184	-2.374
188.55	87.20	-0.184	-2.375
188.70	87.91	-0.184	-2.376
188.84	88.65	-0.184	-2.376
189.00	89.41	-0.184	-2.376
189.13	90.07	-0.184	-2.376
189.28	90.84	-0.184	-2.377
189.43	91.61	-0.184	-2.378
189.58	92.35	-0.184	-2.378
189.72	93.05	-0.184	-2.378
189.87	93.77	-0.184	-2.377
190.02	94.55	-0.184	-2.378
190.16	95.25	-0.184	-2.378
190.32	96.01	-0.184	-2.379
190.46	96.74	-0.184	-2.380
190.60	97.45	-0.185	-2.382
190.75	98.20	-0.185	-2.384
190.90	98.96	-0.185	-2.391
191.05	99.67	-0.186	-2.402
191.19	100.37	-0.187	-2.414
191.34	101.15	-0.188	-2.424
191.48	101.86	-0.188	-2.425
191.63	102.60	-0.187	-2.415
191.78	103.32	-0.187	-2.407
191.92	104.06	-0.186	-2.403
192.07	104.77	-0.186	-2.402
192.23	105.57	-0.186	-2.402
192.37	106.28	-0.186	-2.403
192.52	107.02	-0.186	-2.403
192.66	107.75	-0.186	-2.405
192.80	108.47	-0.187	-2.407
192.95	109.19	-0.187	-2.407
193.10	109.94	-0.187	-2.409
193.26	110.73	-0.187	-2.411
193.40	111.43	-0.187	-2.412
193.54	112.16	-0.187	-2.413
193.68	112.87	-0.187	-2.414
193.83	113.61	-0.187	-2.415
193.98	114.34	-0.187	-2.416
194.13	115.08	-0.187	-2.416
194.27	115.81	-0.187	-2.417
194.42	116.54	-0.187	-2.418
194.56	117.24	-0.188	-2.420
194.71	118.01	-0.188	-2.420
194.86	118.75	-0.188	-2.421
194.88	118.87	-0.188	-2.421